File: db_feed/P3HT/Experimental/Experimental_1/HQ-1-12-2/uv-vis/2g_L_film.csv
wavelength (nm),Absorbance
800.001,0.003051729
798.993,0.002903789
797.985,0.001531029
797.012,0.004839925
796.003,0.002865457
794.994,0.004579525
793.984,0.003316953
793.009,0.003280253
791.998,0.001830288
790.987,0.003037417
790.011,0.003603298
788.999,0.002783098
787.987,0.005193079
787.01,0.004543216
785.997,0.00353322
784.984,0.00370427
784.005,0.001369584
782.991,0.002694346
782.012,0.002703046
780.997,0.004206664
780.017,0.001150108
779.002,0.002414118
777.986,0.003330491
777.004,0.002559496
775.988,0.002305091
775.005,0.002167864
773.988,0.001376984
773.005,0.004016683
771.987,0.004405018
771.004,0.004729607
769.984,0.004242867
769,0.003146576
768.016,0.004330392
766.995,0.002421953
766.01,0.002803132
764.989,0.002491383
764.003,0.004313921
763.017,0.003231717
761.995,0.003303754
761.007,0.003777535
759.985,0.003004912
758.997,0.003432391
758.008,0.003245017
756.984,0.004760959
755.995,0.003006294
755.006,0.003069456
754.016,0.002935531
752.991,0.003019405
752,0.004197281
751.01,0.002800006
749.983,0.003322926
748.992,0.003021282
748,0.003951894
747.007,0.00337549
746.015,0.00330884
744.986,0.003752755
743.993,0.002861288
743,0.003199745
742.005,0.004469691
741.011,0.004228699
740.016,0.003531785
738.986,0.003064216
737.99,0.003103582
736.995,0.003616818
735.998,0.004171405
735.002,0.00375628
734.005,0.003083116
733.008,0.004174856
732.01,0.003795317
731.013,0.004177678
730.014,0.003702808
729.016,0.004008636
728.017,0.003948707
727.018,0.004096036
725.983,0.004491033
724.983,0.003669261
723.982,0.004006677
723.017,0.004085558
722.016,0.003547835
721.015,0.003840078
720.014,0.003510934
719.012,0.004124991
718.009,0.003908768
717.007,0.004261688
716.004,0.003612955
715,0.004058252
713.997,0.003628147
712.993,0.003901898
711.988,0.003940818
710.984,0.00419898
710.015,0.004608878
709.009,0.003616792
708.003,0.004133824
706.997,0.003765732
705.991,0.003829292
704.984,0.00495302
704.013,0.004396101
703.006,0.0040559
701.998,0.004186356
700.99,0.004407162
699.982,0.004077771
699.009,0.004252826
698,0.004269295
696.991,0.004393146
696.018,0.00397692
695.008,0.004632058
693.997,0.003931623
692.987,0.003746358
692.012,0.003745131
691.001,0.004717124
689.989,0.003823625
689.013,0.004093005
688.001,0.004135679
686.989,0.003820909
686.012,0.00499028
684.999,0.004862987
683.985,0.004353427
683.008,0.005142966
681.993,0.005276997
681.015,0.005139142
680,0.004387262
678.985,0.004806211
678.006,0.004344903
676.99,0.005249145
676.011,0.00453971
674.994,0.004644407
674.014,0.00493663
672.997,0.004644931
672.016,0.005513066
670.998,0.004427429
670.017,0.006031259
668.999,0.004262002
668.017,0.005678499
666.998,0.005362897
666.015,0.00677374
664.995,0.006766299
664.012,0.005612701
662.992,0.007019359
662.008,0.006650838
660.987,0.007226292
660.003,0.007909393
659.018,0.00737092
657.996,0.008216563
657.011,0.007957902
655.989,0.008279669
655.003,0.009546268
654.016,0.008812166
652.993,0.009634102
652.006,0.009499011
650.983,0.0101185
649.995,0.0112151
649.007,0.0118613
647.983,0.012259
646.994,0.0128454
646.006,0.0135878
645.017,0.0135644
643.991,0.0137579
643.001,0.0158896
642.012,0.0168885
640.985,0.0172347
639.995,0.0184604
639.004,0.0200153
638.013,0.0210598
636.985,0.021719
635.994,0.0237309
635.002,0.02469822
634.01,0.0261507
633.018,0.0278117
631.988,0.0294119
630.995,0.0308061
630.002,0.0323885
629.009,0.0336018
628.015,0.0350997
626.984,0.0385169
625.99,0.0391731
624.995,0.0407719
624.001,0.04244
623.006,0.0440881
622.01,0.0456593
621.015,0.0470325
619.982,0.047825
618.986,0.0496318
617.989,0.0505983
616.992,0.0512951
615.995,0.0528517
614.998,0.0539556
614,0.0555942
613.003,0.0558645
612.005,0.0562524
611.006,0.0562122
610.008,0.0565229
609.009,0.0575545
608.009,0.0579048
607.01,0.0578472
606.01,0.058273
605.01,0.0584864
604.01,0.058685
603.01,0.0580254
602.009,0.0584188
601.008,0.0585911
600.006,0.0574212
599.005,0.0583041
598.003,0.05844612
597.001,0.0578853
595.999,0.0580264
594.996,0.0575579
593.993,0.0582232
592.99,0.0574695
591.987,0.0588577
590.983,0.0577056
590.016,0.0586801
589.012,0.0585528
588.008,0.059638
587.003,0.0596529
585.998,0.0601494
584.993,0.0607091
583.987,0.0613335
582.982,0.0621148
582.013,0.0630142
581.007,0.0632361
580,0.0638425
578.993,0.0638229
577.987,0.0653107
577.017,0.065713
576.009,0.0666911
575.001,0.0676066
573.993,0.0676054
572.985,0.0694608
572.014,0.06945274
571.005,0.0707419
569.996,0.07192006
568.987,0.07221061
568.015,0.0726092
567.005,0.0724857
565.995,0.0730085
564.985,0.0733911
564.012,0.0738475
563.001,0.0742026
561.99,0.0749017
561.017,0.0744446
560.005,0.0746394
558.993,0.0751095
557.981,0.0743472
557.007,0.074542
555.994,0.0754763
554.982,0.0740737
554.006,0.07402
552.993,0.0741044
552.017,0.0737613
551.004,0.0735322
549.99,0.0737496
549.013,0.0730689
547.999,0.0725489
546.984,0.0724672
546.007,0.0721407
544.992,0.0720664
544.014,0.0717296
542.999,0.0712527
541.983,0.0712337
541.005,0.07077501
539.989,0.0705118
539.01,0.0703011
537.993,0.0700687
537.014,0.0699691
535.997,0.0698419
535.017,0.06981983
533.999,0.0696775
532.981,0.0690485
532.001,0.0687895
530.983,0.0686369
530.002,0.0681414
528.983,0.0681339
528.002,0.0681723
526.983,0.0673777
526.001,0.0673251
524.981,0.0672691
523.999,0.0668324
523.017,0.0659729
521.996,0.0660496
521.014,0.06594824
519.993,0.0647927
519.01,0.0651875
517.988,0.06427706
517.005,0.0639045
515.983,0.0632441
514.999,0.0625345
514.015,0.0625382
512.992,0.0618515
512.008,0.06095171
510.985,0.0610962
510,0.0598753
509.014,0.05930328
507.991,0.0587696
507.005,0.0583926
505.981,0.0572823
504.995,0.0567505
504.009,0.05585124
502.984,0.0556499
501.997,0.0557928
501.01,0.0548187
499.985,0.0539946
498.997,0.0531523
498.01,0.05296528
496.984,0.0527741
495.996,0.0516536
495.008,0.0512374
493.981,0.0505785
492.993,0.0503829
492.004,0.0494217
491.015,0.04914
489.987,0.0484269
488.998,0.0480121
488.008,0.0481111
487.018,0.0468007
485.99,0.0465528
485,0.0457113
484.009,0.0457107
483.019,0.0449279
481.99,0.0444483
480.999,0.044352
480.007,0.0434103
479.016,0.0432313
477.986,0.0425284
476.994,0.0417896
476.002,0.04102613
475.01,0.0406467
474.017,0.0405591
472.987,0.0392735
471.994,0.0390994
471.001,0.0381881
470.007,0.037892
469.014,0.0375082
467.982,0.0367081
466.988,0.0365045
465.994,0.0360682
465,0.0348467
464.006,0.0338652
463.011,0.0338416
462.016,0.0332422
460.983,0.0331529
459.988,0.0326511
458.993,0.0323816
457.997,0.0318061
457.002,0.0307648
456.006,0.0307413
455.01,0.0302827
454.013,0.0299791
453.017,0.0294376
451.982,0.0294292
450.985,0.0292081
449.988,0.0288446
448.991,0.0279234
447.993,0.0275972
446.996,0.02706752
445.998,0.0265192
445,0.026454
444.002,0.0255327
443.004,0.025304
442.005,0.0254421
441.007,0.024799
440.008,0.0242346
439.009,0.0238056
438.01,0.0233903
437.01,0.0230806
436.011,0.0226287
435.011,0.02306645
434.0112,0.0224892
433.011,0.02166535
432.011,0.0214302
431.01,0.0214343
430.01,0.0210996
429.009,0.0203871
428.008,0.0202126
427.007,0.0195453
426.006,0.0194165
425.004,0.01947224
424.003,0.0189712
423.001,0.0187704
421.999,0.0183841
420.997,0.0183978
419.994,0.0182173
418.992,0.01838775
417.989,0.0178656
416.986,0.0176507
415.983,0.0170444
415.019,0.0165604
414.015,0.017436
413.012,0.0167144
412.008,0.0165928
411.004,0.0161826
410,0.015907
408.996,0.0158094
407.991,0.0157854
406.987,0.0145456
405.982,0.0154228
405.016,0.0156587
404.011,0.0141304
403.006,0.01443223
402.001,0.0142346
400.995,0.0144702
399.989,0.01352348
398.983,0.0136105
398.016,0.0134642
397.01,0.0131184
396.004,0.0137395
394.997,0.0136847
393.991,0.0136135
392.984,0.0126994
392.015,0.0126584
391.008,0.0126798
390.001,0.0117703
388.994,0.0119515
387.986,0.01136707
387.017,0.0119273
386.009,0.0116972
385.001,0.0111938
383.993,0.0116343
382.984,0.0110096
382.015,0.0112177
381.006,0.0104783
379.997,0.0107792
378.988,0.01109808
378.018,0.0105677
377.009,0.0108354
375.999,0.01055763
374.99,0.0105756
374.019,0.0101651
373.009,0.0102838
371.999,0.009630661
370.988,0.009890428
370.017,0.009618381
369.006,0.009958412
367.996,0.01004384
366.985,0.009523936
366.013,0.009511129
365.002,0.00999674
363.99,0.009829788
363.018,0.009388561
362.006,0.009101153
360.995,0.009843662
359.983,0.009358936
359.01,0.0095097
357.998,0.009695244
356.985,0.00923382
356.012,0.008799486
354.999,0.008754898
353.987,0.009730107
353.013,0.009265499
352,0.008550403
350.987,0.009010282