File: db_feed/P3HT/Experimental/Experimental_1/HQ-1-12-1/uv-vis/1g_L_film.csv
wavelength (nm),Absorbance
800.001,0.002262987
798.993,0.000771284
797.985,0.000516033
797.012,0.003354907
796.003,0.001811311
794.994,0.003093675
793.984,0.001217024
793.009,0.002373929
791.998,0.000270385
790.987,0.001801538
790.011,0.001158491
788.999,0.002038118
787.987,0.003381986
787.01,0.001996299
785.997,0.002482037
784.984,0.002155949
784.005,0.000555117
782.991,0.002401259
782.012,0.002232335
780.997,0.002917627
780.017,0.002310947
779.002,0.001056292
777.986,0.001959712
777.004,0.001481545
775.988,0.000471691
775.005,0.002273786
773.988,0.001239453
773.005,0.002325885
771.987,0.000940756
771.004,0.00187131
769.984,0.003320526
769,0.001467103
768.016,0.001918317
766.995,0.000897124
766.01,0.001136612
764.989,0.001790932
764.003,0.001913741
763.017,0.00266244
761.995,0.001340423
761.007,0.002103142
759.985,0.001867202
758.997,0.001313679
758.008,0.000997781
756.984,0.002468108
755.995,0.001260091
755.006,0.000175568
754.016,0.001661247
752.991,0.002098252
752,0.001653036
751.01,0.00205843
749.983,0.002005323
748.992,0.001629001
748,0.003356655
747.007,0.002341318
746.015,0.001485623
744.986,0.002178374
743.993,0.00131991
743,0.000594464
742.005,0.002150798
741.011,0.002450692
740.016,0.002322371
738.986,0.000303205
737.99,0.000914141
736.995,0.002676088
735.998,0.002429372
735.002,0.001549759
734.005,0.001347953
733.008,0.001987926
732.01,0.001337125
731.013,0.002140834
730.014,0.002343738
729.016,0.001687753
728.017,0.001980488
727.018,0.001631287
725.983,0.002742588
724.983,0.002325572
723.982,0.001823581
723.017,0.002140366
722.016,0.002061213
721.015,0.002079966
720.014,0.002086313
719.012,0.00226015
718.009,0.002058794
717.007,0.002252787
716.004,0.002350895
715,0.00255421
713.997,0.001820539
712.993,0.001923699
711.988,0.001918213
710.984,0.002109411
710.015,0.002290284
709.009,0.001600836
708.003,0.001849135
706.997,0.001738456
705.991,0.001364987
704.984,0.002952367
704.013,0.002417971
703.006,0.001903236
701.998,0.002282373
700.99,0.002601681
699.982,0.002243549
699.009,0.001932695
698,0.002564156
696.991,0.001881215
696.018,0.002617853
695.008,0.002471987
693.997,0.001142918
692.987,0.002325754
692.012,0.001769229
691.001,0.002735737
689.989,0.002473601
689.013,0.002153087
688.001,0.003027225
686.989,0.001328686
686.012,0.002878512
684.999,0.00268312
683.985,0.00217814
683.008,0.002722087
681.993,0.002470087
681.015,0.00243627
680,0.00255184
678.985,0.002482141
678.006,0.002732533
676.99,0.003448438
676.011,0.002412791
674.994,0.002663846
674.014,0.002268712
672.997,0.003616531
672.016,0.0035012
670.998,0.002317765
670.017,0.003915559
668.999,0.002725552
668.017,0.002676713
666.998,0.002966728
666.015,0.004610814
664.995,0.003356759
664.012,0.002741416
662.992,0.003689964
662.008,0.002712762
660.987,0.003631462
660.003,0.004538559
659.018,0.003484264
657.996,0.004925346
657.011,0.004378451
655.989,0.004924822
655.003,0.005467766
654.016,0.005363316
652.993,0.006034357
652.006,0.005532546
650.983,0.005420138
649.995,0.006925845
649.007,0.006953121
647.983,0.00700481
646.994,0.007363943
646.006,0.007920096
645.017,0.007783771
643.991,0.008131758
643.001,0.0101785
642.012,0.0106502
640.985,0.0100541
639.995,0.0102272
639.004,0.0116835
638.013,0.0114994
636.985,0.0121067
635.994,0.0144588
635.002,0.0140351
634.01,0.0161319
633.018,0.0159559
631.988,0.0166207
630.995,0.0180481
630.002,0.0190352
629.009,0.0195353
628.015,0.0204677
626.984,0.0224311
625.99,0.0225378
624.995,0.0242241
624.001,0.0254689
623.006,0.0259445
622.01,0.0272815
621.015,0.0293928
619.982,0.0291282
618.986,0.0298178
617.989,0.0311493
616.992,0.0320092
615.995,0.03240978
614.998,0.0333132
614,0.03505012
613.003,0.0354758
612.005,0.0363479
611.006,0.03584921
610.008,0.0369091
609.009,0.038242
608.009,0.0380587
607.01,0.0386657
606.01,0.039611
605.01,0.0398122
604.01,0.0405184
603.01,0.0401791
602.009,0.0409198
601.008,0.0415774
600.006,0.0411968
599.005,0.0416811
598.003,0.0423179
597.001,0.0418549
595.999,0.042171
594.996,0.0426713
593.993,0.0421576
592.99,0.0425664
591.987,0.0434072
590.983,0.0432619
590.016,0.0442567
589.012,0.0440173
588.008,0.0446627
587.003,0.0448896
585.998,0.0451891
584.993,0.0455868
583.987,0.0454268
582.982,0.0469959
582.013,0.047611
581.007,0.0478201
580,0.0484621
578.993,0.0488161
577.987,0.0495855
577.017,0.05082994
576.009,0.0510264
575.001,0.0512966
573.993,0.0519043
572.985,0.0534615
572.014,0.0534611
571.005,0.0541412
569.996,0.0545955
568.987,0.0552591
568.015,0.0553639
567.005,0.05625397
565.995,0.0563868
564.985,0.057457
564.012,0.0582361
563.001,0.0577881
561.99,0.0583348
561.017,0.0585784
560.005,0.0585728
558.993,0.059867
557.981,0.0593331
557.007,0.05950965
555.994,0.06052053
554.982,0.0600574
554.006,0.06049205
552.993,0.0603034
552.017,0.0600117
551.004,0.0605803
549.99,0.0601178
549.013,0.0602535
547.999,0.059989
546.984,0.0600301
546.007,0.0599708
544.992,0.0603001
544.014,0.0599641
542.999,0.0595439
541.983,0.05988539
541.005,0.05922759
539.989,0.05958515
539.01,0.059286
537.993,0.0591465
537.014,0.0589819
535.997,0.0591115
535.017,0.0589502
533.999,0.0591042
532.981,0.0584143
532.001,0.0583896
530.983,0.058239
530.002,0.0581853
528.983,0.0580819
528.002,0.05813
526.983,0.0580843
526.001,0.0578521
524.981,0.0574518
523.999,0.0575544
523.017,0.0571313
521.996,0.0565902
521.014,0.0567885
519.993,0.05632814
519.01,0.0567812
517.988,0.0557662
517.005,0.05565178
515.983,0.0554608
514.999,0.0554916
514.015,0.0550931
512.992,0.0545144
512.008,0.0537847
510.985,0.0534914
510,0.0531281
509.014,0.0523099
507.991,0.05240668
507.005,0.0519738
505.981,0.0513312
504.995,0.0506124
504.009,0.04993188
502.984,0.0499307
501.997,0.0498927
501.01,0.0493509
499.985,0.0487718
498.997,0.0484276
498.01,0.047797
496.984,0.0475107
495.996,0.0467452
495.008,0.0464971
493.981,0.0456365
492.993,0.0457811
492.004,0.0448308
491.015,0.0444001
489.987,0.044264
488.998,0.0439247
488.008,0.0437844
487.018,0.04323066
485.99,0.042347
485,0.0416783
484.009,0.0415996
483.019,0.0407132
481.99,0.040299
480.999,0.0399006
480.007,0.0393983
479.016,0.0390502
477.986,0.0388839
476.994,0.0387029
476.002,0.0373601
475.01,0.0375473
474.017,0.0365986
472.987,0.0358367
471.994,0.035498
471.001,0.03492111
470.007,0.0347606
469.014,0.0344133
467.982,0.0336477
466.988,0.0333427
465.994,0.0328457
465,0.032457
464.006,0.0309637
463.011,0.0309392
462.016,0.0308018
460.983,0.0304753
459.988,0.0300681
458.993,0.029844
457.997,0.0294871
457.002,0.0288335
456.006,0.0286204
455.01,0.0275333
454.013,0.0274327
453.017,0.0267438
451.982,0.0266175
450.985,0.0274933
449.988,0.0260175
448.991,0.02558565
447.993,0.02440387
446.996,0.024903
445.998,0.024224
445,0.0241665
444.002,0.0234078
443.004,0.0235667
442.005,0.0232589
441.007,0.0224761
440.008,0.0218058
439.009,0.0223281
438.01,0.02117
437.01,0.0213706
436.011,0.0204341
435.011,0.020826
434.0112,0.0200572
433.011,0.01975641
432.011,0.0193302
431.01,0.0194068
430.01,0.0195116
429.009,0.0183986
428.008,0.0185274
427.007,0.01821854
426.006,0.0179111
425.004,0.0176723
424.003,0.0169529
423.001,0.0174079
421.999,0.01631278
420.997,0.0165158
419.994,0.0162057
418.992,0.01605
417.989,0.015681
416.986,0.0155856
415.983,0.01534412
415.019,0.015126
414.015,0.0150153
413.012,0.0139521
412.008,0.0142698
411.004,0.0145377
410,0.0139459
408.996,0.0140608
407.991,0.013734
406.987,0.0130468
405.982,0.012933
405.016,0.0134248
404.011,0.0127125
403.006,0.0124688
402.001,0.0125029
400.995,0.0124244
399.989,0.0116295
398.983,0.0119675
398.016,0.01174294
397.01,0.0116069
396.004,0.0114933
394.997,0.0111538
393.991,0.0113136
392.984,0.0108621
392.015,0.0107606
391.008,0.0105485
390.001,0.0101421
388.994,0.0108134
387.986,0.009722298
387.017,0.010042
386.009,0.009992582
385.001,0.009340871
383.993,0.009590382
382.984,0.009199552
382.015,0.008996936
381.006,0.00872492
379.997,0.00883359
378.988,0.008930263
378.018,0.009459484
377.009,0.009114582
375.999,0.008379968
374.99,0.008109234
374.019,0.008264473
373.009,0.008666212
371.999,0.008293838
370.988,0.007955845
370.017,0.008024662
369.006,0.008346479
367.996,0.008017806
366.985,0.007823304
366.013,0.007999797
365.002,0.00751075
363.99,0.007521601
363.018,0.007433403
362.006,0.007460685
360.995,0.008209599
359.983,0.007835929
359.01,0.00731995
357.998,0.007330191
356.985,0.007594274
356.012,0.00740033
354.999,0.007719604
353.987,0.007679501
353.013,0.007500899
352,0.006833061
350.987,0.007730619