File: db_feed/P3HT/Experimental/Experimental_1/HQ-1-12-8/uv-vis/8g_L_film.csv
wavelength (nm),Absorbance
800.001,0.0438749
798.993,0.0426348
797.985,0.0424046
797.012,0.0441467
796.003,0.0442542
794.994,0.04512284
793.984,0.0440973
793.009,0.0455395
791.998,0.0441434
790.987,0.0452827
790.011,0.0447174
788.999,0.0465708
787.987,0.0463353
787.01,0.0464622
785.997,0.0463073
784.984,0.0465222
784.005,0.0444737
782.991,0.0460025
782.012,0.0464112
780.997,0.0466291
780.017,0.0464583
779.002,0.045089
777.986,0.0476472
777.004,0.0473905
775.988,0.0459744
775.005,0.0465085
773.988,0.0476152
773.005,0.0485459
771.987,0.0484613
771.004,0.0484917
769.984,0.0494418
769,0.0486362
768.016,0.0482414
766.995,0.04828085
766.01,0.048309
764.989,0.0490071
764.003,0.0498616
763.017,0.0511094
761.995,0.0500307
761.007,0.049956
759.985,0.0506981
758.997,0.0506273
758.008,0.0498559
756.984,0.0516143
755.995,0.0509271
755.006,0.0504476
754.016,0.0518172
752.991,0.0516742
752,0.0510762
751.01,0.0518055
749.983,0.0526108
748.992,0.0524581
748,0.0536491
747.007,0.052336
746.015,0.053323
744.986,0.0535238
743.993,0.0533913
743,0.053374
742.005,0.0546065
741.011,0.0548627
740.016,0.0552203
738.986,0.0544646
737.99,0.0549269
736.995,0.0554609
735.998,0.0561463
735.002,0.0565139
734.005,0.0556448
733.008,0.05742339
732.01,0.0576548
731.013,0.0582206
730.014,0.05825
729.016,0.0576902
728.017,0.0591376
727.018,0.05863617
725.983,0.0597811
724.983,0.0591203
723.982,0.0597783
723.017,0.0603417
722.016,0.0606317
721.015,0.060733
720.014,0.06070473
719.012,0.0612668
718.009,0.06147182
717.007,0.0613535
716.004,0.0620883
715,0.06202307
713.997,0.0621789
712.993,0.0630129
711.988,0.0636648
710.984,0.062945
710.015,0.064078
709.009,0.06404528
708.003,0.0640975
706.997,0.0637934
705.991,0.0657111
704.984,0.066052
704.013,0.0661905
703.006,0.0661147
701.998,0.0666788
700.99,0.0669481
699.982,0.0670803
699.009,0.067131
698,0.0677008
696.991,0.0671362
696.018,0.068338
695.008,0.0689988
693.997,0.06865783
692.987,0.0699698
692.012,0.0694081
691.001,0.07090427
689.989,0.0705847
689.013,0.0712837
688.001,0.0723078
686.989,0.0724255
686.012,0.072887
684.999,0.0733729
683.985,0.0738278
683.008,0.0740679
681.993,0.0741834
681.015,0.0756529
680,0.0760732
678.985,0.0760422
678.006,0.0769279
676.99,0.0782346
676.011,0.0772324
674.994,0.07812044
674.014,0.0785897
672.997,0.0803732
672.016,0.0821922
670.998,0.0814975
670.017,0.08321
668.999,0.08279144
668.017,0.0846393
666.998,0.0849585
666.015,0.0870295
664.995,0.0878956
664.012,0.0882982
662.992,0.0908219
662.008,0.0899864
660.987,0.0920946
660.003,0.0945375
659.018,0.0956374
657.996,0.09823817
657.011,0.0985518
655.989,0.100728
655.003,0.102733
654.016,0.104644
652.993,0.107759
652.006,0.108546
650.983,0.111103
649.995,0.1141451
649.007,0.11736
647.983,0.120351
646.994,0.123647
646.006,0.126708
645.017,0.131487
643.991,0.13377
643.001,0.139145
642.012,0.144138
640.985,0.148803
639.995,0.154162
639.004,0.160788
638.013,0.165413
636.985,0.172481
635.994,0.181583
635.002,0.186886
634.01,0.195045
633.018,0.203121
631.988,0.211859
630.995,0.221533
630.002,0.229625
629.009,0.238403
628.015,0.248416
626.984,0.259188
625.99,0.267888
624.995,0.27656
624.001,0.286692
623.006,0.2945382
622.01,0.304191
621.015,0.312828
619.982,0.321316
618.986,0.329483
617.989,0.335875
616.992,0.342707
615.995,0.348587
614.998,0.355963
614,0.361168
613.003,0.36625
612.005,0.370901
611.006,0.375743
610.008,0.379798
609.009,0.383136
608.009,0.386843
607.01,0.388917
606.01,0.392372
605.01,0.39455
604.01,0.395422
603.01,0.396424
602.009,0.399876
601.008,0.40143
600.006,0.401157
599.005,0.403857
598.003,0.404826
597.001,0.405966
595.999,0.406613
594.996,0.407549
593.993,0.410126
592.99,0.412194
591.987,0.413639
590.983,0.415776
590.016,0.419112
589.012,0.420126
588.008,0.425317
587.003,0.428531
585.998,0.43357
584.993,0.436466
583.987,0.442409
582.982,0.446369
582.013,0.453537
581.007,0.458607
580,0.464792
578.993,0.470605
577.987,0.477134
577.017,0.483608
576.009,0.4901
575.001,0.49951
573.993,0.505383
572.985,0.514023
572.014,0.518102
571.005,0.526631
569.996,0.534774
568.987,0.54062
568.015,0.547188
567.005,0.552682
565.995,0.557293
564.985,0.563629
564.012,0.569294
563.001,0.572637
561.99,0.57807
561.017,0.582292
560.005,0.584772
558.993,0.588004
557.981,0.591728
557.007,0.594636
555.994,0.598023
554.982,0.599225
554.006,0.602423
552.993,0.60262
552.017,0.604005
551.004,0.604609
549.99,0.607051
549.013,0.607116
547.999,0.607566
546.984,0.60867
546.007,0.608935
544.992,0.609601
544.014,0.610562
542.999,0.610557
541.983,0.611069
541.005,0.611139
539.989,0.611953
539.01,0.612487
537.993,0.614359
537.014,0.61459
535.997,0.614975
535.017,0.616208
533.999,0.617678
532.981,0.617944
532.001,0.618184
530.983,0.619734
530.002,0.620419
528.983,0.621344
528.002,0.622633
526.983,0.622589
526.001,0.623239
524.981,0.623746
523.999,0.623516
523.017,0.623495
521.996,0.622927
521.014,0.624061
519.993,0.621438
519.01,0.621853
517.988,0.620248
517.005,0.61898
515.983,0.617552
514.999,0.616019
514.015,0.613321
512.992,0.610281
512.008,0.609172
510.985,0.606294
510,0.604429
509.014,0.601351
507.991,0.598171
507.005,0.594021
505.981,0.592137
504.995,0.587973
504.009,0.585348
502.984,0.581797
501.997,0.578383
501.01,0.57513
499.985,0.57044
498.997,0.568207
498.01,0.564202
496.984,0.5608
495.996,0.557515
495.008,0.553494
493.981,0.549421
492.993,0.545823
492.004,0.541955
491.015,0.538644
489.987,0.534197
488.998,0.530759
488.008,0.526456
487.018,0.522774
485.99,0.519504
485,0.515051
484.009,0.511096
483.019,0.507107
481.99,0.502521
480.999,0.498633
480.007,0.49359
479.016,0.489082
477.986,0.484707
476.994,0.479063
476.002,0.473829
475.01,0.469523
474.017,0.464433
472.987,0.458635
471.994,0.453496
471.001,0.449091
470.007,0.444118
469.014,0.439046
467.982,0.432985
466.988,0.427937
465.994,0.421971
465,0.416397
464.006,0.411345
463.011,0.405612
462.016,0.401007
460.983,0.395855
459.988,0.3907
458.993,0.385812
457.997,0.381563
457.002,0.375989
456.006,0.371112
455.01,0.365489
454.013,0.361833
453.017,0.355971
451.982,0.35208
450.985,0.34788
449.988,0.342432
448.991,0.336471
447.993,0.33281
446.996,0.328038
445.998,0.323628
445,0.31925
444.002,0.313779
443.004,0.30986
442.005,0.305748
441.007,0.301335
440.008,0.297276
439.009,0.292174
438.01,0.288114
437.01,0.283948
436.011,0.280121
435.011,0.27641
434.0112,0.272211
433.011,0.267985
432.011,0.265214
431.01,0.261263
430.01,0.257354
429.009,0.253693
428.008,0.249721
427.007,0.246219
426.006,0.242922
425.004,0.24004
424.003,0.235943
423.001,0.232766
421.999,0.2295
420.997,0.226527
419.994,0.223473
418.992,0.219787
417.989,0.217302
416.986,0.213853
415.983,0.210915
415.019,0.208104
414.015,0.205212
413.012,0.201688
412.008,0.199012
411.004,0.196479
410,0.193579
408.996,0.191003
407.991,0.188405
406.987,0.18542
405.982,0.182645
405.016,0.181758
404.011,0.177954
403.006,0.175939
402.001,0.173915
400.995,0.171553
399.989,0.169207
398.983,0.167342
398.016,0.165338
397.01,0.16223
396.004,0.160452
394.997,0.15839
393.991,0.156399
392.984,0.153967
392.015,0.151967
391.008,0.150123
390.001,0.148022
388.994,0.146226
387.986,0.144274
387.017,0.14217
386.009,0.141228
385.001,0.138623
383.993,0.137135
382.984,0.135429
382.015,0.134137
381.006,0.131798
379.997,0.130314
378.988,0.128802
378.018,0.126944
377.009,0.126294
375.999,0.124855
374.99,0.122564
374.019,0.121697
373.009,0.119943
371.999,0.118343
370.988,0.116544
370.017,0.11575
369.006,0.114341
367.996,0.113377
366.985,0.112129
366.013,0.110722
365.002,0.109765
363.99,0.107904
363.018,0.106804
362.006,0.105566
360.995,0.104359
359.983,0.103177
359.01,0.101749
357.998,0.101035
356.985,0.100145
356.012,0.0990017
354.999,0.0975269
353.987,0.0968401
353.013,0.09615282
352,0.0946404
350.987,0.0939026