File: db_feed/P3HT/Experimental/Experimental_1/HQ-1-12-5/uv-vis/5g_L_film.csv
wavelength (nm),Absorbance
800.001,0.0187616
798.993,0.0188642
797.985,0.0187888
797.012,0.0208971
796.003,0.01940191
794.994,0.0217872
793.984,0.0209844
793.009,0.0205796
791.998,0.019895
790.987,0.0200985
790.011,0.0199417
788.999,0.020378
787.987,0.0219179
787.01,0.0229363
785.997,0.0224449
784.984,0.0202284
784.005,0.0217423
782.991,0.0212831
782.012,0.0203689
780.997,0.02188989
780.017,0.0201043
779.002,0.02012915
777.986,0.0228383
777.004,0.0203137
775.988,0.0206653
775.005,0.0206016
773.988,0.0219334
773.005,0.0243092
771.987,0.0227009
771.004,0.0239382
769.984,0.0238613
769,0.0222436
768.016,0.0231331
766.995,0.0232148
766.01,0.0229528
764.989,0.0236167
764.003,0.0237995
763.017,0.0234418
761.995,0.0233841
761.007,0.02393947
759.985,0.02385515
758.997,0.02322235
758.008,0.0234262
756.984,0.0249948
755.995,0.0243276
755.006,0.0229862
754.016,0.0245375
752.991,0.0241842
752,0.0245944
751.01,0.024978
749.983,0.02524606
748.992,0.0254123
748,0.0269883
747.007,0.0262594
746.015,0.0252255
744.986,0.0272805
743.993,0.0255287
743,0.0256939
742.005,0.0277563
741.011,0.0277284
740.016,0.0273625
738.986,0.0262049
737.99,0.0271251
736.995,0.0281661
735.998,0.0285375
735.002,0.0280906
734.005,0.0283196
733.008,0.02901038
732.01,0.028548
731.013,0.0288495
730.014,0.0286825
729.016,0.02932116
728.017,0.0300118
727.018,0.0302223
725.983,0.0310689
724.983,0.030283
723.982,0.0307325
723.017,0.0310745
722.016,0.0310318
721.015,0.0308712
720.014,0.0317226
719.012,0.0325036
718.009,0.032608
717.007,0.0323035
716.004,0.03270204
715,0.0333908
713.997,0.0327971
712.993,0.0335203
711.988,0.0341233
710.984,0.0344266
710.015,0.034392
709.009,0.0343289
708.003,0.0341009
706.997,0.0348839
705.991,0.035378
704.984,0.0359845
704.013,0.036788
703.006,0.03603429
701.998,0.0364554
700.99,0.0369111
699.982,0.0370816
699.009,0.0374345
698,0.0380774
696.991,0.0380183
696.018,0.0383723
695.008,0.03954627
693.997,0.03821167
692.987,0.040056
692.012,0.03952058
691.001,0.0410005
689.989,0.0408747
689.013,0.0412886
688.001,0.0426803
686.989,0.041792
686.012,0.0434004
684.999,0.0436849
683.985,0.0440006
683.008,0.0441905
681.993,0.0449096
681.015,0.0460783
680,0.0457499
678.985,0.0462068
678.006,0.046682
676.99,0.0486727
676.011,0.0487224
674.994,0.0497719
674.014,0.049446
672.997,0.0513686
672.016,0.052159
670.998,0.0515486
670.017,0.0542141
668.999,0.0538846
668.017,0.0549551
666.998,0.0561849
666.015,0.0576863
664.995,0.0596034
664.012,0.0601191
662.992,0.0616031
662.008,0.0619296
660.987,0.0639984
660.003,0.0656359
659.018,0.06743975
657.996,0.0695741
657.011,0.0711332
655.989,0.0728288
655.003,0.0759848
654.016,0.0775583
652.993,0.081197
652.006,0.0826857
650.983,0.0849877
649.995,0.08842
649.007,0.092256
647.983,0.095533
646.994,0.0981692
646.006,0.10312
645.017,0.106235
643.991,0.109734
643.001,0.115706
642.012,0.11932
640.985,0.125043
639.995,0.130816
639.004,0.136089
638.013,0.14054
636.985,0.148008
635.994,0.154877
635.002,0.160615
634.01,0.168389
633.018,0.174805
631.988,0.181221
630.995,0.189368
630.002,0.195792
629.009,0.203042
628.015,0.210803
626.984,0.218781
625.99,0.225568
624.995,0.232442
624.001,0.238108
623.006,0.243739
622.01,0.249699
621.015,0.254816
619.982,0.26051
618.986,0.264371
617.989,0.269024
616.992,0.273844
615.995,0.276501
614.998,0.279968
614,0.282802
613.003,0.285443
612.005,0.287073
611.006,0.288162
610.008,0.28889
609.009,0.290667
608.009,0.291233
607.01,0.290821
606.01,0.292503
605.01,0.291521
604.01,0.291574
603.01,0.291213
602.009,0.290187
601.008,0.289871
600.006,0.288748
599.005,0.289083
598.003,0.28784
597.001,0.287936
595.999,0.287281
594.996,0.286472
593.993,0.28782
592.99,0.2865
591.987,0.288284
590.983,0.289255
590.016,0.290425
589.012,0.290986
588.008,0.293063
587.003,0.295001
585.998,0.297622
584.993,0.299952
583.987,0.302127
582.982,0.306461
582.013,0.30968
581.007,0.311989
580,0.316311
578.993,0.318766
577.987,0.322296
577.017,0.326113
576.009,0.329386
575.001,0.3343876
573.993,0.337651
572.985,0.341417
572.014,0.344067
571.005,0.348227
569.996,0.351546
568.987,0.354339
568.015,0.357
567.005,0.358882
565.995,0.361197
564.985,0.364251
564.012,0.365388
563.001,0.366434
561.99,0.367556
561.017,0.368342
560.005,0.369164
558.993,0.370262
557.981,0.369616
557.007,0.369787
555.994,0.370629
554.982,0.369482
554.006,0.368843
552.993,0.368461
552.017,0.367322
551.004,0.36564
549.99,0.365168
549.013,0.364442
547.999,0.362879
546.984,0.362455
546.007,0.361949
544.992,0.360634
544.014,0.359842
542.999,0.35848
541.983,0.358014
541.005,0.357225
539.989,0.357092
539.01,0.355973
537.993,0.355437
537.014,0.355797
535.997,0.355321
535.017,0.354742
533.999,0.354656
532.981,0.354228
532.001,0.353893
530.983,0.353412
530.002,0.353489
528.983,0.353552
528.002,0.353361
526.983,0.352162
526.001,0.352042
524.981,0.351402
523.999,0.351004
523.017,0.349521
521.996,0.348343
521.014,0.348159
519.993,0.346101
519.01,0.345219
517.988,0.343709
517.005,0.341409
515.983,0.340387
514.999,0.338169
514.015,0.336465
512.992,0.333726
512.008,0.332617
510.985,0.329849
510,0.32744
509.014,0.324943
507.991,0.322417
507.005,0.320022
505.981,0.3172
504.995,0.313908
504.009,0.312073
502.984,0.309491
501.997,0.3078
501.01,0.305212
499.985,0.301982
498.997,0.299505
498.01,0.297096
496.984,0.295213
495.996,0.292199
495.008,0.290423
493.981,0.287427
492.993,0.285007
492.004,0.282759
491.015,0.280347
489.987,0.278174
488.998,0.27518
488.008,0.272864
487.018,0.270487
485.99,0.268847
485,0.265911
484.009,0.263253
483.019,0.261038
481.99,0.258045
480.999,0.255592
480.007,0.252754
479.016,0.250201
477.986,0.247285
476.994,0.244347
476.002,0.241462
475.01,0.238881
474.017,0.236345
472.987,0.232689
471.994,0.230102
471.001,0.22706
470.007,0.224795
469.014,0.221738
467.982,0.218816
466.988,0.215712
465.994,0.213045
465,0.209818
464.006,0.20648
463.011,0.20391
462.016,0.20181
460.983,0.199557
459.988,0.196398
458.993,0.193802
457.997,0.192011
457.002,0.188999
456.006,0.18648
455.01,0.183922
454.013,0.181536
453.017,0.178862
451.982,0.177221
450.985,0.175433
449.988,0.172509
448.991,0.169202
447.993,0.167461
446.996,0.165193
445.998,0.163002
445,0.160924
444.002,0.158178
443.004,0.156272
442.005,0.154718
441.007,0.152512
440.008,0.150035
439.009,0.147881
438.01,0.145755
437.01,0.143833
436.011,0.141595
435.011,0.140205
434.0112,0.137822
433.011,0.135862
432.011,0.133823
431.01,0.132409
430.01,0.130852
429.009,0.128775
428.008,0.12748
427.007,0.125285
426.006,0.123508
425.004,0.122136
424.003,0.120011
423.001,0.118806
421.999,0.116749
420.997,0.116069
419.994,0.114046
418.992,0.112671
417.989,0.110932
416.986,0.109332
415.983,0.108098
415.019,0.106523
414.015,0.105308
413.012,0.103434
412.008,0.101972
411.004,0.100844
410,0.0995468
408.996,0.0981395
407.991,0.0973646
406.987,0.0953932
405.982,0.0936642
405.016,0.0934024
404.011,0.0919672
403.006,0.0900417
402.001,0.08916083
400.995,0.0882235
399.989,0.0870101
398.983,0.0859162
398.016,0.08500313
397.01,0.0831848
396.004,0.0829253
394.997,0.0815044
393.991,0.0803495
392.984,0.0795694
392.015,0.07807254
391.008,0.0772319
390.001,0.0754522
388.994,0.0752395
387.986,0.0738407
387.017,0.0729227
386.009,0.0724407
385.001,0.0707032
383.993,0.07023561
382.984,0.06921804
382.015,0.0684226
381.006,0.06725122
379.997,0.0659765
378.988,0.0657966
378.018,0.0646725
377.009,0.0645899
375.999,0.06258519
374.99,0.0619323
374.019,0.0610431
373.009,0.0610515
371.999,0.0601864
370.988,0.0591451
370.017,0.0583482
369.006,0.058571
367.996,0.0567404
366.985,0.0563418
366.013,0.05554251
365.002,0.05482417
363.99,0.0544795
363.018,0.054069
362.006,0.0527105
360.995,0.0521644
359.983,0.0515572
359.01,0.050377
357.998,0.0503922
356.985,0.0496907
356.012,0.0490821
354.999,0.0488923
353.987,0.0480396
353.013,0.0475289
352,0.0468398
350.987,0.0465031